target_image,cue_ori,target_x,condition,answer,thisN,thisTrialN,thisRepN,target_resp.keys,target_resp.corr,target_resp.rt,target_resp.duration,trials.thisRepN,trials.thisTrialN,trials.thisN,trials.thisIndex,thisRow.t,notes,instructions.started,inst_text.started,start_resp.started,instructions.stopped,start_resp.keys,start_resp.rt,start_resp.duration,Target image,trial.started,cue.started,target.started,target_resp.started,cue.stopped,trial.stopped,trials.target_resp.keys,trials.target_resp.corr,trials.target_resp.rt,trials.target_resp.duration,participant,session,date,expName,expVersion,psychopyVersion,frameRate,expStart,
,,,,,,,,,,,,,,,,,,0.02417110002716072,0.03550220001488924,0.03550220001488924,0.44877090002410114,right,0.39483560001826845,None,,,,,,,,,,,,pilot,001,2025-10-30_16h55.31.234,oct30exp,,2025.1.1,59.98551949706344,2025-10-30 16h55.35.537249 -0400,
images/green_alien.png,90,0.5,congruent,right,0,0,0,right,1,0.29652199998963624,None,0,0,0,2,0.5657610000052955,,,,,,,,,images/green_alien.png,0.5297498000145424,0.5657610000052955,1.050584800017532,1.050584800017532,1.0672589000023436,1.354512900026748,right,1,0.29652199998963624,None,pilot,001,2025-10-30_16h55.31.234,oct30exp,,2025.1.1,59.98551949706344,2025-10-30 16h55.35.537249 -0400,
images/green_alien.png,270,-0.5,congruent,left,1,1,0,left,1,0.23152209998806939,None,0,1,1,3,1.418105500022648,,,,,,,,,images/green_alien.png,1.408381700020982,1.418105500022648,1.9674480000103358,1.9674480000103358,1.9338727000285871,2.2050333000079263,left,1,0.23152209998806939,None,pilot,001,2025-10-30_16h55.31.234,oct30exp,,2025.1.1,59.98551949706344,2025-10-30 16h55.35.537249 -0400,
images/green_alien.png,90,-0.5,incongruent,left,2,2,0,left,1,0.3427159999846481,None,0,2,2,0,2.2860752000124194,,,,,,,,,images/green_alien.png,2.270856700022705,2.2860752000124194,2.817609600024298,2.817609600024298,2.8006905000074767,3.170421000017086,left,1,0.3427159999846481,None,pilot,001,2025-10-30_16h55.31.234,oct30exp,,2025.1.1,59.98551949706344,2025-10-30 16h55.35.537249 -0400,
images/green_alien.png,270,0.5,incongruent,right,3,3,0,right,1,0.20334700000239536,None,0,3,3,1,3.235395100025926,,,,,,,,,images/green_alien.png,3.222300900000846,3.235395100025926,3.7840828000043985,3.7840828000043985,3.7344328000035603,3.9890445000201,right,1,0.20334700000239536,None,pilot,001,2025-10-30_16h55.31.234,oct30exp,,2025.1.1,59.98551949706344,2025-10-30 16h55.35.537249 -0400,
images/green_alien.png,270,0.5,incongruent,right,4,0,1,right,1,0.36378260000492446,None,1,0,4,1,4.119573800009675,,,,,,,,,images/red_alien.png,4.0954620000266,4.119573800009675,4.601099400024395,4.601099400024395,4.63433490000898,4.971703700022772,right,1,0.36378260000492446,None,pilot,001,2025-10-30_16h55.31.234,oct30exp,,2025.1.1,59.98551949706344,2025-10-30 16h55.35.537249 -0400,
images/green_alien.png,90,0.5,congruent,right,5,1,1,right,1,0.32978349999757484,None,1,1,5,2,5.036154200002784,,,,,,,,,images/red_alien.png,5.023078800004441,5.036154200002784,5.601375000027474,5.601375000027474,5.551778200024273,5.938275600026827,right,1,0.32978349999757484,None,pilot,001,2025-10-30_16h55.31.234,oct30exp,,2025.1.1,59.98551949706344,2025-10-30 16h55.35.537249 -0400,
images/green_alien.png,270,-0.5,congruent,left,6,2,1,left,1,0.2710082000121474,None,1,2,6,3,6.002404900005786,,,,,,,,,images/red_alien.png,5.987104100000579,6.002404900005786,6.550852200016379,6.550852200016379,6.500743200012948,6.837432700005593,left,1,0.2710082000121474,None,pilot,001,2025-10-30_16h55.31.234,oct30exp,,2025.1.1,59.98551949706344,2025-10-30 16h55.35.537249 -0400,
images/green_alien.png,90,-0.5,incongruent,left,7,3,1,left,1,0.35174720000941306,None,1,3,7,0,6.952000400022371,,,,,,,,,images/green_alien.png,6.930182100011734,6.952000400022371,7.451523600000655,7.451523600000655,7.451523600000655,7.805159800016554,left,1,0.35174720000941306,None,pilot,001,2025-10-30_16h55.31.234,oct30exp,,2025.1.1,59.98551949706344,2025-10-30 16h55.35.537249 -0400,
images/green_alien.png,270,0.5,incongruent,right,8,0,2,right,1,0.22237740000127815,None,2,0,8,1,7.918201100022998,,,,,,,,,images/red_alien.png,7.900004400027683,7.918201100022998,8.417765600024723,8.417765600024723,8.434286800009431,8.654178400000092,right,1,0.22237740000127815,None,pilot,001,2025-10-30_16h55.31.234,oct30exp,,2025.1.1,59.98551949706344,2025-10-30 16h55.35.537249 -0400,
images/green_alien.png,90,-0.5,incongruent,left,9,1,2,left,1,0.3236606999998912,None,2,1,9,0,8.718653500021901,,,,,,,,,images/red_alien.png,8.702554300019983,8.718653500021901,9.268305300007341,9.268305300007341,9.218188000028022,9.604751700011548,left,1,0.3236606999998912,None,pilot,001,2025-10-30_16h55.31.234,oct30exp,,2025.1.1,59.98551949706344,2025-10-30 16h55.35.537249 -0400,
images/green_alien.png,90,0.5,congruent,right,10,2,2,right,1,0.3709282999916468,None,2,2,10,2,9.669873800012283,,,,,,,,,images/red_alien.png,9.656952700024704,9.669873800012283,10.217079900001409,10.217079900001409,10.18364310002653,10.604529800009914,right,1,0.3709282999916468,None,pilot,001,2025-10-30_16h55.31.234,oct30exp,,2025.1.1,59.98551949706344,2025-10-30 16h55.35.537249 -0400,
images/green_alien.png,270,-0.5,congruent,left,11,3,2,left,1,0.22502539999550208,None,2,3,11,3,10.66855430000578,,,,,,,,,images/red_alien.png,10.652446000021882,10.66855430000578,11.220065800007433,11.220065800007433,11.186381900013657,11.459202700003516,left,1,0.22502539999550208,None,pilot,001,2025-10-30_16h55.31.234,oct30exp,,2025.1.1,59.98551949706344,2025-10-30 16h55.35.537249 -0400,
images/green_alien.png,270,-0.5,congruent,left,12,0,3,left,1,0.39896930000395514,None,3,0,12,3,11.58691560002626,,,,,,,,,images/red_alien.png,11.551045400003204,11.58691560002626,12.067473900009645,12.067473900009645,12.10119630000554,12.470770300016738,left,1,0.39896930000395514,None,pilot,001,2025-10-30_16h55.31.234,oct30exp,,2025.1.1,59.98551949706344,2025-10-30 16h55.35.537249 -0400,
images/green_alien.png,90,-0.5,incongruent,left,13,1,3,left,1,0.3932935000048019,None,3,1,13,0,12.586112000019057,,,,,,,,,images/green_alien.png,12.564352600020356,12.586112000019057,13.084041100024479,13.084041100024479,13.101053700025659,13.487698600016301,left,1,0.3932935000048019,None,pilot,001,2025-10-30_16h55.31.234,oct30exp,,2025.1.1,59.98551949706344,2025-10-30 16h55.35.537249 -0400,
images/green_alien.png,270,0.5,incongruent,right,14,2,3,right,1,0.21164520000456832,None,3,2,14,1,13.5850581000268,,,,,,,,,images/red_alien.png,13.573225700005423,13.5850581000268,14.10290110000642,14.10290110000642,14.085457700013649,14.327681000024313,right,1,0.21164520000456832,None,pilot,001,2025-10-30_16h55.31.234,oct30exp,,2025.1.1,59.98551949706344,2025-10-30 16h55.35.537249 -0400,
images/green_alien.png,90,0.5,congruent,right,15,3,3,right,1,0.2767974000016693,None,3,3,15,2,14.485275800019735,,,,,,,,,images/green_alien.png,14.472489700012375,14.485275800019735,14.934131400019396,14.934131400019396,14.984455000027083,15.222534100001212,right,1,0.2767974000016693,None,pilot,001,2025-10-30_16h55.31.234,oct30exp,,2025.1.1,59.98551949706344,2025-10-30 16h55.35.537249 -0400,
images/green_alien.png,90,0.5,congruent,right,16,0,4,right,1,0.38341830001445487,None,4,0,16,2,15.336705300025642,,,,,,,,,images/green_alien.png,15.295146200020099,15.336705300025642,15.83416590001434,15.83416590001434,15.851022800023202,16.22346990002552,right,1,0.38341830001445487,None,pilot,001,2025-10-30_16h55.31.234,oct30exp,,2025.1.1,59.98551949706344,2025-10-30 16h55.35.537249 -0400,
images/green_alien.png,270,-0.5,congruent,left,17,1,4,left,1,0.26935310001135804,None,4,1,17,3,16.302683900023112,,,,,,,,,images/green_alien.png,16.290890600008424,16.302683900023112,16.834603700001026,16.834603700001026,16.817726100009168,17.10680510001839,left,1,0.26935310001135804,None,pilot,001,2025-10-30_16h55.31.234,oct30exp,,2025.1.1,59.98551949706344,2025-10-30 16h55.35.537249 -0400,
images/green_alien.png,90,-0.5,incongruent,left,18,2,4,left,1,0.40245650001452304,None,4,2,18,0,17.25289070000872,,,,,,,,,images/red_alien.png,17.22811740002362,17.25289070000872,17.71777510002721,17.71777510002721,17.7681776000245,18.12318240001332,left,1,0.40245650001452304,None,pilot,001,2025-10-30_16h55.31.234,oct30exp,,2025.1.1,59.98551949706344,2025-10-30 16h55.35.537249 -0400,
images/green_alien.png,270,0.5,incongruent,right,19,3,4,right,1,0.267491099977633,None,4,3,19,1,18.202891700027976,,,,,,,,,images/red_alien.png,18.18362049999996,18.202891700027976,18.73434470000211,18.73434470000211,18.71797540000989,19.0065494000155,right,1,0.267491099977633,None,pilot,001,2025-10-30_16h55.31.234,oct30exp,,2025.1.1,59.98551949706344,2025-10-30 16h55.35.537249 -0400,
